practices.thisRepN,practices.thisTrialN,practices.thisN,practices.thisIndex,trials.thisRepN,trials.thisTrialN,trials.thisN,trials.thisIndex,slider.response,slider.rt,participant,session,date,expName,psychopyVersion,frameRate,
0,0,0,0,,,,,2.0,3.6112058999715373,11,001,2019_Nov_18_1808,001,3.0.7,60.24771450246814,
1,0,1,0,,,,,2.0,2.06338720000349,11,001,2019_Nov_18_1808,001,3.0.7,60.24771450246814,
2,0,2,0,,,,,1.0,2.963884499971755,11,001,2019_Nov_18_1808,001,3.0.7,60.24771450246814,
3,0,3,0,,,,,1.0,2.4975310000008903,11,001,2019_Nov_18_1808,001,3.0.7,60.24771450246814,
4,0,4,0,,,,,2.0,3.0304034000146203,11,001,2019_Nov_18_1808,001,3.0.7,60.24771450246814,
5,0,5,0,,,,,3.0,2.7977694000001065,11,001,2019_Nov_18_1808,001,3.0.7,60.24771450246814,
6,0,6,0,,,,,1.0,2.6648443000158295,11,001,2019_Nov_18_1808,001,3.0.7,60.24771450246814,
7,0,7,0,,,,,1.0,2.146257999993395,11,001,2019_Nov_18_1808,001,3.0.7,60.24771450246814,
8,0,8,0,,,,,2.0,4.630918900016695,11,001,2019_Nov_18_1808,001,3.0.7,60.24771450246814,
9,0,9,0,,,,,1.0,2.6306992000318132,11,001,2019_Nov_18_1808,001,3.0.7,60.24771450246814,
,,,,0,0,0,0,1.0,3.7967941000242718,11,001,2019_Nov_18_1808,001,3.0.7,60.24771450246814,
,,,,1,0,1,0,1.0,3.6638554999954067,11,001,2019_Nov_18_1808,001,3.0.7,60.24771450246814,
,,,,2,0,2,0,2.0,2.8314224000205286,11,001,2019_Nov_18_1808,001,3.0.7,60.24771450246814,
,,,,3,0,3,0,2.0,2.5817805000115186,11,001,2019_Nov_18_1808,001,3.0.7,60.24771450246814,
,,,,4,0,4,0,2.0,4.131304199981969,11,001,2019_Nov_18_1808,001,3.0.7,60.24771450246814,
,,,,5,0,5,0,1.0,2.4984745999681763,11,001,2019_Nov_18_1808,001,3.0.7,60.24771450246814,
,,,,6,0,6,0,2.0,3.198142100009136,11,001,2019_Nov_18_1808,001,3.0.7,60.24771450246814,
,,,,7,0,7,0,3.0,2.831407500023488,11,001,2019_Nov_18_1808,001,3.0.7,60.24771450246814,
,,,,8,0,8,0,2.0,3.3311491000349633,11,001,2019_Nov_18_1808,001,3.0.7,60.24771450246814,
,,,,9,0,9,0,1.0,2.51470480003627,11,001,2019_Nov_18_1808,001,3.0.7,60.24771450246814,
,,,,10,0,10,0,3.0,2.8314003000268713,11,001,2019_Nov_18_1808,001,3.0.7,60.24771450246814,
,,,,11,0,11,0,3.0,2.497662900015712,11,001,2019_Nov_18_1808,001,3.0.7,60.24771450246814,
,,,,12,0,12,0,4.0,3.96399040002143,11,001,2019_Nov_18_1808,001,3.0.7,60.24771450246814,
,,,,13,0,13,0,1.0,2.714740699972026,11,001,2019_Nov_18_1808,001,3.0.7,60.24771450246814,
,,,,14,0,14,0,3.0,2.565068500000052,11,001,2019_Nov_18_1808,001,3.0.7,60.24771450246814,
,,,,15,0,15,0,3.0,2.0646990000386722,11,001,2019_Nov_18_1808,001,3.0.7,60.24771450246814,
,,,,16,0,16,0,1.0,2.880943800031673,11,001,2019_Nov_18_1808,001,3.0.7,60.24771450246814,
,,,,17,0,17,0,1.0,2.0149799000355415,11,001,2019_Nov_18_1808,001,3.0.7,60.24771450246814,
,,,,18,0,18,0,2.0,3.114707999979146,11,001,2019_Nov_18_1808,001,3.0.7,60.24771450246814,
,,,,19,0,19,0,1.0,2.597874800034333,11,001,2019_Nov_18_1808,001,3.0.7,60.24771450246814,
,,,,20,0,20,0,3.0,3.2976044000242837,11,001,2019_Nov_18_1808,001,3.0.7,60.24771450246814,
,,,,21,0,21,0,3.0,2.2823041999945417,11,001,2019_Nov_18_1808,001,3.0.7,60.24771450246814,
,,,,22,0,22,0,1.0,2.3647117000073195,11,001,2019_Nov_18_1808,001,3.0.7,60.24771450246814,
,,,,23,0,23,0,2.0,3.0978484000079334,11,001,2019_Nov_18_1808,001,3.0.7,60.24771450246814,
,,,,24,0,24,0,1.0,2.7146202999865636,11,001,2019_Nov_18_1808,001,3.0.7,60.24771450246814,
,,,,25,0,25,0,2.0,3.0480308000114746,11,001,2019_Nov_18_1808,001,3.0.7,60.24771450246814,
,,,,26,0,26,0,1.0,3.4816443999879993,11,001,2019_Nov_18_1808,001,3.0.7,60.24771450246814,
,,,,27,0,27,0,2.0,2.547903199971188,11,001,2019_Nov_18_1808,001,3.0.7,60.24771450246814,
,,,,28,0,28,0,2.0,4.83137309999438,11,001,2019_Nov_18_1808,001,3.0.7,60.24771450246814,
,,,,29,0,29,0,3.0,2.9813087999937125,11,001,2019_Nov_18_1808,001,3.0.7,60.24771450246814,
,,,,30,0,30,0,1.0,3.2311134000192396,11,001,2019_Nov_18_1808,001,3.0.7,60.24771450246814,
,,,,31,0,31,0,1.0,1.9653585000196472,11,001,2019_Nov_18_1808,001,3.0.7,60.24771450246814,
,,,,32,0,32,0,4.0,3.3979209999670275,11,001,2019_Nov_18_1808,001,3.0.7,60.24771450246814,
,,,,33,0,33,0,1.0,2.3146378999808803,11,001,2019_Nov_18_1808,001,3.0.7,60.24771450246814,
,,,,34,0,34,0,1.0,1.947928299952764,11,001,2019_Nov_18_1808,001,3.0.7,60.24771450246814,
,,,,35,0,35,0,1.0,1.831390500010457,11,001,2019_Nov_18_1808,001,3.0.7,60.24771450246814,
,,,,36,0,36,0,2.0,2.881424200022593,11,001,2019_Nov_18_1808,001,3.0.7,60.24771450246814,
,,,,37,0,37,0,1.0,2.281441700004507,11,001,2019_Nov_18_1808,001,3.0.7,60.24771450246814,
,,,,38,0,38,0,1.0,1.9320794999948703,11,001,2019_Nov_18_1808,001,3.0.7,60.24771450246814,
,,,,39,0,39,0,1.0,2.0802143000182696,11,001,2019_Nov_18_1808,001,3.0.7,60.24771450246814,
,,,,40,0,40,0,2.0,2.464754999964498,11,001,2019_Nov_18_1808,001,3.0.7,60.24771450246814,
,,,,41,0,41,0,3.0,2.764714399992954,11,001,2019_Nov_18_1808,001,3.0.7,60.24771450246814,
,,,,42,0,42,0,1.0,2.6151437999797054,11,001,2019_Nov_18_1808,001,3.0.7,60.24771450246814,
,,,,43,0,43,0,1.0,2.231417400005739,11,001,2019_Nov_18_1808,001,3.0.7,60.24771450246814,
,,,,44,0,44,0,2.0,2.297752499987837,11,001,2019_Nov_18_1808,001,3.0.7,60.24771450246814,
,,,,45,0,45,0,1.0,3.256895700003952,11,001,2019_Nov_18_1808,001,3.0.7,60.24771450246814,
,,,,46,0,46,0,3.0,2.7501675999956205,11,001,2019_Nov_18_1808,001,3.0.7,60.24771450246814,
,,,,47,0,47,0,2.0,3.9677578000118956,11,001,2019_Nov_18_1808,001,3.0.7,60.24771450246814,
,,,,48,0,48,0,2.0,2.825648999947589,11,001,2019_Nov_18_1808,001,3.0.7,60.24771450246814,
,,,,49,0,49,0,2.0,2.0776018999749795,11,001,2019_Nov_18_1808,001,3.0.7,60.24771450246814,
,,,,50,0,50,0,4.0,4.293662899988703,11,001,2019_Nov_18_1808,001,3.0.7,60.24771450246814,
,,,,51,0,51,0,1.0,2.920167999982368,11,001,2019_Nov_18_1808,001,3.0.7,60.24771450246814,
,,,,52,0,52,0,4.0,2.8360831000027247,11,001,2019_Nov_18_1808,001,3.0.7,60.24771450246814,
,,,,53,0,53,0,3.0,2.589272399956826,11,001,2019_Nov_18_1808,001,3.0.7,60.24771450246814,
,,,,54,0,54,0,1.0,3.60809930000687,11,001,2019_Nov_18_1808,001,3.0.7,60.24771450246814,
,,,,55,0,55,0,4.0,3.2669745000312105,11,001,2019_Nov_18_1808,001,3.0.7,60.24771450246814,
,,,,56,0,56,0,2.0,3.454879099968821,11,001,2019_Nov_18_1808,001,3.0.7,60.24771450246814,
,,,,57,0,57,0,3.0,4.704773200035561,11,001,2019_Nov_18_1808,001,3.0.7,60.24771450246814,
,,,,58,0,58,0,2.0,3.001825999992434,11,001,2019_Nov_18_1808,001,3.0.7,60.24771450246814,
,,,,59,0,59,0,2.0,2.801907100016251,11,001,2019_Nov_18_1808,001,3.0.7,60.24771450246814,
