practices.thisRepN,practices.thisTrialN,practices.thisN,practices.thisIndex,trials.thisRepN,trials.thisTrialN,trials.thisN,trials.thisIndex,slider.response,slider.rt,participant,session,date,expName,psychopyVersion,frameRate,
0,0,0,0,,,,,2.0,5.00563179992605,32,001,2019_Nov_22_1644,001,3.0.7,60.001392028924535,
1,0,1,0,,,,,4.0,2.9452865999192,32,001,2019_Nov_22_1644,001,3.0.7,60.001392028924535,
2,0,2,0,,,,,2.0,2.6472610000055283,32,001,2019_Nov_22_1644,001,3.0.7,60.001392028924535,
3,0,3,0,,,,,3.0,3.5141028999350965,32,001,2019_Nov_22_1644,001,3.0.7,60.001392028924535,
4,0,4,0,,,,,1.0,4.614008800010197,32,001,2019_Nov_22_1644,001,3.0.7,60.001392028924535,
5,0,5,0,,,,,1.0,2.7800818000687286,32,001,2019_Nov_22_1644,001,3.0.7,60.001392028924535,
6,0,6,0,,,,,4.0,4.347593399928883,32,001,2019_Nov_22_1644,001,3.0.7,60.001392028924535,
7,0,7,0,,,,,2.0,3.630419799941592,32,001,2019_Nov_22_1644,001,3.0.7,60.001392028924535,
8,0,8,0,,,,,4.0,2.430904100066982,32,001,2019_Nov_22_1644,001,3.0.7,60.001392028924535,
9,0,9,0,,,,,5.0,2.5315651999553666,32,001,2019_Nov_22_1644,001,3.0.7,60.001392028924535,
,,,,0,0,0,0,1.0,2.548776000039652,32,001,2019_Nov_22_1644,001,3.0.7,60.001392028924535,
,,,,1,0,1,0,4.0,2.781209599925205,32,001,2019_Nov_22_1644,001,3.0.7,60.001392028924535,
,,,,2,0,2,0,4.0,2.214834099984728,32,001,2019_Nov_22_1644,001,3.0.7,60.001392028924535,
,,,,3,0,3,0,2.0,3.4980854999739677,32,001,2019_Nov_22_1644,001,3.0.7,60.001392028924535,
,,,,4,0,4,0,2.0,3.065150300040841,32,001,2019_Nov_22_1644,001,3.0.7,60.001392028924535,
,,,,5,0,5,0,1.0,2.6648309000302106,32,001,2019_Nov_22_1644,001,3.0.7,60.001392028924535,
,,,,6,0,6,0,4.0,4.348145200056024,32,001,2019_Nov_22_1644,001,3.0.7,60.001392028924535,
,,,,7,0,7,0,5.0,4.364665300003253,32,001,2019_Nov_22_1644,001,3.0.7,60.001392028924535,
,,,,8,0,8,0,1.0,2.2299840999767184,32,001,2019_Nov_22_1644,001,3.0.7,60.001392028924535,
,,,,9,0,9,0,4.0,3.047662700060755,32,001,2019_Nov_22_1644,001,3.0.7,60.001392028924535,
,,,,10,0,10,0,2.0,3.782205800060183,32,001,2019_Nov_22_1644,001,3.0.7,60.001392028924535,
,,,,11,0,11,0,3.0,2.814464000053704,32,001,2019_Nov_22_1644,001,3.0.7,60.001392028924535,
,,,,12,0,12,0,1.0,3.814732200000435,32,001,2019_Nov_22_1644,001,3.0.7,60.001392028924535,
,,,,13,0,13,0,2.0,2.1649140000808984,32,001,2019_Nov_22_1644,001,3.0.7,60.001392028924535,
,,,,14,0,14,0,2.0,4.6479944998864084,32,001,2019_Nov_22_1644,001,3.0.7,60.001392028924535,
,,,,15,0,15,0,3.0,3.1479297999758273,32,001,2019_Nov_22_1644,001,3.0.7,60.001392028924535,
,,,,16,0,16,0,4.0,5.2313585000811145,32,001,2019_Nov_22_1644,001,3.0.7,60.001392028924535,
,,,,17,0,17,0,5.0,3.1145267999963835,32,001,2019_Nov_22_1644,001,3.0.7,60.001392028924535,
,,,,18,0,18,0,2.0,3.41461460001301,32,001,2019_Nov_22_1644,001,3.0.7,60.001392028924535,
,,,,19,0,19,0,5.0,4.347787900012918,32,001,2019_Nov_22_1644,001,3.0.7,60.001392028924535,
,,,,20,0,20,0,5.0,3.2649447000585496,32,001,2019_Nov_22_1644,001,3.0.7,60.001392028924535,
,,,,21,0,21,0,2.0,2.597847199998796,32,001,2019_Nov_22_1644,001,3.0.7,60.001392028924535,
,,,,22,0,22,0,1.0,2.7318656999850646,32,001,2019_Nov_22_1644,001,3.0.7,60.001392028924535,
,,,,23,0,23,0,1.0,2.331475899904035,32,001,2019_Nov_22_1644,001,3.0.7,60.001392028924535,
,,,,24,0,24,0,2.0,5.864736899966374,32,001,2019_Nov_22_1644,001,3.0.7,60.001392028924535,
,,,,25,0,25,0,1.0,4.214284299989231,32,001,2019_Nov_22_1644,001,3.0.7,60.001392028924535,
,,,,26,0,26,0,4.0,4.948108899989165,32,001,2019_Nov_22_1644,001,3.0.7,60.001392028924535,
,,,,27,0,27,0,2.0,2.2973261000588536,32,001,2019_Nov_22_1644,001,3.0.7,60.001392028924535,
,,,,28,0,28,0,5.0,2.782558900071308,32,001,2019_Nov_22_1644,001,3.0.7,60.001392028924535,
,,,,29,0,29,0,2.0,2.531413600081578,32,001,2019_Nov_22_1644,001,3.0.7,60.001392028924535,
,,,,30,0,30,0,1.0,2.1647513000061736,32,001,2019_Nov_22_1644,001,3.0.7,60.001392028924535,
,,,,31,0,31,0,2.0,2.3477956999558955,32,001,2019_Nov_22_1644,001,3.0.7,60.001392028924535,
,,,,32,0,32,0,3.0,4.548476299969479,32,001,2019_Nov_22_1644,001,3.0.7,60.001392028924535,
,,,,33,0,33,0,2.0,1.9811342000029981,32,001,2019_Nov_22_1644,001,3.0.7,60.001392028924535,
,,,,34,0,34,0,2.0,2.4978238999610767,32,001,2019_Nov_22_1644,001,3.0.7,60.001392028924535,
,,,,35,0,35,0,2.0,2.7479385000187904,32,001,2019_Nov_22_1644,001,3.0.7,60.001392028924535,
,,,,36,0,36,0,2.0,2.1483601999934763,32,001,2019_Nov_22_1644,001,3.0.7,60.001392028924535,
,,,,37,0,37,0,3.0,3.715379900066182,32,001,2019_Nov_22_1644,001,3.0.7,60.001392028924535,
,,,,38,0,38,0,1.0,2.5480233000125736,32,001,2019_Nov_22_1644,001,3.0.7,60.001392028924535,
,,,,39,0,39,0,2.0,2.431364400079474,32,001,2019_Nov_22_1644,001,3.0.7,60.001392028924535,
,,,,40,0,40,0,5.0,4.214554100064561,32,001,2019_Nov_22_1644,001,3.0.7,60.001392028924535,
,,,,41,0,41,0,4.0,3.498478199937381,32,001,2019_Nov_22_1644,001,3.0.7,60.001392028924535,
,,,,42,0,42,0,1.0,2.6147121000103652,32,001,2019_Nov_22_1644,001,3.0.7,60.001392028924535,
,,,,43,0,43,0,2.0,2.147992499987595,32,001,2019_Nov_22_1644,001,3.0.7,60.001392028924535,
,,,,44,0,44,0,5.0,2.9316100999712944,32,001,2019_Nov_22_1644,001,3.0.7,60.001392028924535,
,,,,45,0,45,0,2.0,3.0965368000324816,32,001,2019_Nov_22_1644,001,3.0.7,60.001392028924535,
,,,,46,0,46,0,2.0,0.18385179992765188,32,001,2019_Nov_22_1644,001,3.0.7,60.001392028924535,
,,,,47,0,47,0,5.0,3.789023800054565,32,001,2019_Nov_22_1644,001,3.0.7,60.001392028924535,
,,,,48,0,48,0,4.0,2.602823100052774,32,001,2019_Nov_22_1644,001,3.0.7,60.001392028924535,
,,,,49,0,49,0,4.0,3.253836299991235,32,001,2019_Nov_22_1644,001,3.0.7,60.001392028924535,
,,,,50,0,50,0,4.0,4.662002700031735,32,001,2019_Nov_22_1644,001,3.0.7,60.001392028924535,
,,,,51,0,51,0,2.0,2.397430200013332,32,001,2019_Nov_22_1644,001,3.0.7,60.001392028924535,
,,,,52,0,52,0,5.0,3.464796799933538,32,001,2019_Nov_22_1644,001,3.0.7,60.001392028924535,
,,,,53,0,53,0,2.0,4.596437000087462,32,001,2019_Nov_22_1644,001,3.0.7,60.001392028924535,
,,,,54,0,54,0,3.0,4.966237199958414,32,001,2019_Nov_22_1644,001,3.0.7,60.001392028924535,
,,,,55,0,55,0,5.0,2.900170899927616,32,001,2019_Nov_22_1644,001,3.0.7,60.001392028924535,
,,,,56,0,56,0,5.0,3.0133497999049723,32,001,2019_Nov_22_1644,001,3.0.7,60.001392028924535,
,,,,57,0,57,0,4.0,4.031039100023918,32,001,2019_Nov_22_1644,001,3.0.7,60.001392028924535,
,,,,58,0,58,0,1.0,3.7591085999738425,32,001,2019_Nov_22_1644,001,3.0.7,60.001392028924535,
,,,,59,0,59,0,5.0,2.419308100012131,32,001,2019_Nov_22_1644,001,3.0.7,60.001392028924535,
