practices.thisRepN,practices.thisTrialN,practices.thisN,practices.thisIndex,trials.thisRepN,trials.thisTrialN,trials.thisN,trials.thisIndex,slider.response,slider.rt,participant,session,date,expName,psychopyVersion,frameRate,
0,0,0,0,,,,,5.0,4.926805700000841,5,001,2019_Nov_16_1419,001,3.0.7,60.01781328812345,
1,0,1,0,,,,,4.0,5.2285364999988815,5,001,2019_Nov_16_1419,001,3.0.7,60.01781328812345,
2,0,2,0,,,,,4.0,3.2136651999899186,5,001,2019_Nov_16_1419,001,3.0.7,60.01781328812345,
3,0,3,0,,,,,5.0,4.914169899988337,5,001,2019_Nov_16_1419,001,3.0.7,60.01781328812345,
4,0,4,0,,,,,3.0,3.7977608000073815,5,001,2019_Nov_16_1419,001,3.0.7,60.01781328812345,
5,0,5,0,,,,,3.0,3.2640400000091176,5,001,2019_Nov_16_1419,001,3.0.7,60.01781328812345,
6,0,6,0,,,,,3.0,3.097445699997479,5,001,2019_Nov_16_1419,001,3.0.7,60.01781328812345,
7,0,7,0,,,,,2.0,3.348531499999808,5,001,2019_Nov_16_1419,001,3.0.7,60.01781328812345,
8,0,8,0,,,,,5.0,4.097435800009407,5,001,2019_Nov_16_1419,001,3.0.7,60.01781328812345,
9,0,9,0,,,,,4.0,5.16406989999814,5,001,2019_Nov_16_1419,001,3.0.7,60.01781328812345,
,,,,0,0,0,0,2.0,3.078135799994925,5,001,2019_Nov_16_1419,001,3.0.7,60.01781328812345,
,,,,1,0,1,0,3.0,4.281711899995571,5,001,2019_Nov_16_1419,001,3.0.7,60.01781328812345,
,,,,2,0,2,0,2.0,3.448471999989124,5,001,2019_Nov_16_1419,001,3.0.7,60.01781328812345,
,,,,3,0,3,0,2.0,3.464462599993567,5,001,2019_Nov_16_1419,001,3.0.7,60.01781328812345,
,,,,4,0,4,0,2.0,2.8484024000063073,5,001,2019_Nov_16_1419,001,3.0.7,60.01781328812345,
,,,,5,0,5,0,2.0,5.414707100004307,5,001,2019_Nov_16_1419,001,3.0.7,60.01781328812345,
,,,,6,0,6,0,2.0,2.9311904999922263,5,001,2019_Nov_16_1419,001,3.0.7,60.01781328812345,
,,,,7,0,7,0,2.0,3.748542699991958,5,001,2019_Nov_16_1419,001,3.0.7,60.01781328812345,
,,,,8,0,8,0,2.0,2.3478075999883004,5,001,2019_Nov_16_1419,001,3.0.7,60.01781328812345,
,,,,9,0,9,0,2.0,3.4320727000012994,5,001,2019_Nov_16_1419,001,3.0.7,60.01781328812345,
,,,,10,0,10,0,3.0,3.931940599999507,5,001,2019_Nov_16_1419,001,3.0.7,60.01781328812345,
,,,,11,0,11,0,4.0,3.4650782000098843,5,001,2019_Nov_16_1419,001,3.0.7,60.01781328812345,
,,,,12,0,12,0,3.0,2.8648939999984577,5,001,2019_Nov_16_1419,001,3.0.7,60.01781328812345,
,,,,13,0,13,0,2.0,2.747919200002798,5,001,2019_Nov_16_1419,001,3.0.7,60.01781328812345,
,,,,14,0,14,0,3.0,3.1151902999990853,5,001,2019_Nov_16_1419,001,3.0.7,60.01781328812345,
,,,,15,0,15,0,2.0,2.7154983000073116,5,001,2019_Nov_16_1419,001,3.0.7,60.01781328812345,
,,,,16,0,16,0,2.0,2.8814320000092266,5,001,2019_Nov_16_1419,001,3.0.7,60.01781328812345,
,,,,17,0,17,0,3.0,2.9648002999892924,5,001,2019_Nov_16_1419,001,3.0.7,60.01781328812345,
,,,,18,0,18,0,2.0,2.7646986999898218,5,001,2019_Nov_16_1419,001,3.0.7,60.01781328812345,
,,,,19,0,19,0,2.0,2.407343099999707,5,001,2019_Nov_16_1419,001,3.0.7,60.01781328812345,
,,,,20,0,20,0,3.0,3.431814600000507,5,001,2019_Nov_16_1419,001,3.0.7,60.01781328812345,
,,,,21,0,21,0,2.0,2.715251600006013,5,001,2019_Nov_16_1419,001,3.0.7,60.01781328812345,
,,,,22,0,22,0,3.0,3.131434499999159,5,001,2019_Nov_16_1419,001,3.0.7,60.01781328812345,
,,,,23,0,23,0,3.0,2.3652333000063663,5,001,2019_Nov_16_1419,001,3.0.7,60.01781328812345,
,,,,24,0,24,0,3.0,2.298278400005074,5,001,2019_Nov_16_1419,001,3.0.7,60.01781328812345,
,,,,25,0,25,0,2.0,2.581370200001402,5,001,2019_Nov_16_1419,001,3.0.7,60.01781328812345,
,,,,26,0,26,0,3.0,2.681459100000211,5,001,2019_Nov_16_1419,001,3.0.7,60.01781328812345,
,,,,27,0,27,0,3.0,1.9311316000093939,5,001,2019_Nov_16_1419,001,3.0.7,60.01781328812345,
,,,,28,0,28,0,2.0,2.564800699998159,5,001,2019_Nov_16_1419,001,3.0.7,60.01781328812345,
,,,,29,0,29,0,2.0,2.281488199994783,5,001,2019_Nov_16_1419,001,3.0.7,60.01781328812345,
,,,,30,0,30,0,3.0,2.514890899998136,5,001,2019_Nov_16_1419,001,3.0.7,60.01781328812345,
,,,,31,0,31,0,2.0,2.447867500013672,5,001,2019_Nov_16_1419,001,3.0.7,60.01781328812345,
,,,,32,0,32,0,2.0,2.5154111000010744,5,001,2019_Nov_16_1419,001,3.0.7,60.01781328812345,
,,,,33,0,33,0,2.0,2.3481317999976454,5,001,2019_Nov_16_1419,001,3.0.7,60.01781328812345,
,,,,34,0,34,0,4.0,3.614936399986618,5,001,2019_Nov_16_1419,001,3.0.7,60.01781328812345,
,,,,35,0,35,0,2.0,3.0147245999978622,5,001,2019_Nov_16_1419,001,3.0.7,60.01781328812345,
,,,,36,0,36,0,2.0,2.4651444000046467,5,001,2019_Nov_16_1419,001,3.0.7,60.01781328812345,
,,,,37,0,37,0,2.0,3.0479401999909896,5,001,2019_Nov_16_1419,001,3.0.7,60.01781328812345,
,,,,38,0,38,0,2.0,3.0318527999916114,5,001,2019_Nov_16_1419,001,3.0.7,60.01781328812345,
,,,,39,0,39,0,3.0,3.1980775999982143,5,001,2019_Nov_16_1419,001,3.0.7,60.01781328812345,
,,,,40,0,40,0,2.0,2.3247619999892777,5,001,2019_Nov_16_1419,001,3.0.7,60.01781328812345,
,,,,41,0,41,0,2.0,2.4815801000077045,5,001,2019_Nov_16_1419,001,3.0.7,60.01781328812345,
,,,,42,0,42,0,2.0,2.5148359000013443,5,001,2019_Nov_16_1419,001,3.0.7,60.01781328812345,
,,,,43,0,43,0,2.0,2.4479327000008198,5,001,2019_Nov_16_1419,001,3.0.7,60.01781328812345,
,,,,44,0,44,0,2.0,2.5151080999930855,5,001,2019_Nov_16_1419,001,3.0.7,60.01781328812345,
,,,,45,0,45,0,4.0,3.597795900001074,5,001,2019_Nov_16_1419,001,3.0.7,60.01781328812345,
,,,,46,0,46,0,4.0,2.7490999000001466,5,001,2019_Nov_16_1419,001,3.0.7,60.01781328812345,
,,,,47,0,47,0,3.0,4.268191299997852,5,001,2019_Nov_16_1419,001,3.0.7,60.01781328812345,
,,,,48,0,48,0,3.0,2.882534000003943,5,001,2019_Nov_16_1419,001,3.0.7,60.01781328812345,
,,,,49,0,49,0,4.0,3.0285491999966325,5,001,2019_Nov_16_1419,001,3.0.7,60.01781328812345,
,,,,50,0,50,0,5.0,3.213330099999439,5,001,2019_Nov_16_1419,001,3.0.7,60.01781328812345,
,,,,51,0,51,0,4.0,2.65163290000055,5,001,2019_Nov_16_1419,001,3.0.7,60.01781328812345,
,,,,52,0,52,0,5.0,3.0494286000030115,5,001,2019_Nov_16_1419,001,3.0.7,60.01781328812345,
,,,,53,0,53,0,4.0,3.380501000006916,5,001,2019_Nov_16_1419,001,3.0.7,60.01781328812345,
,,,,54,0,54,0,4.0,2.2627277000137838,5,001,2019_Nov_16_1419,001,3.0.7,60.01781328812345,
,,,,55,0,55,0,4.0,3.1497857999929693,5,001,2019_Nov_16_1419,001,3.0.7,60.01781328812345,
,,,,56,0,56,0,2.0,2.952653400003328,5,001,2019_Nov_16_1419,001,3.0.7,60.01781328812345,
,,,,57,0,57,0,2.0,2.257847100001527,5,001,2019_Nov_16_1419,001,3.0.7,60.01781328812345,
,,,,58,0,58,0,3.0,3.6502469000115525,5,001,2019_Nov_16_1419,001,3.0.7,60.01781328812345,
,,,,59,0,59,0,4.0,3.020145100002992,5,001,2019_Nov_16_1419,001,3.0.7,60.01781328812345,
