practices.thisRepN,practices.thisTrialN,practices.thisN,practices.thisIndex,trials.thisRepN,trials.thisTrialN,trials.thisN,trials.thisIndex,slider.response,slider.rt,participant,session,date,expName,psychopyVersion,frameRate,
0,0,0,0,,,,,3.0,7.200309200008633,8,001,2019_Nov_18_1351,001,3.0.7,60.01539995011592,
1,0,1,0,,,,,4.0,3.2897145000169985,8,001,2019_Nov_18_1351,001,3.0.7,60.01539995011592,
2,0,2,0,,,,,4.0,2.730888199992478,8,001,2019_Nov_18_1351,001,3.0.7,60.01539995011592,
3,0,3,0,,,,,4.0,3.2475710999860894,8,001,2019_Nov_18_1351,001,3.0.7,60.01539995011592,
4,0,4,0,,,,,2.0,3.346921799995471,8,001,2019_Nov_18_1351,001,3.0.7,60.01539995011592,
5,0,5,0,,,,,3.0,3.114570800011279,8,001,2019_Nov_18_1351,001,3.0.7,60.01539995011592,
6,0,6,0,,,,,4.0,3.5808726999966893,8,001,2019_Nov_18_1351,001,3.0.7,60.01539995011592,
7,0,7,0,,,,,4.0,2.646817100001499,8,001,2019_Nov_18_1351,001,3.0.7,60.01539995011592,
8,0,8,0,,,,,2.0,3.047354100010125,8,001,2019_Nov_18_1351,001,3.0.7,60.01539995011592,
9,0,9,0,,,,,3.0,3.597629299998516,8,001,2019_Nov_18_1351,001,3.0.7,60.01539995011592,
,,,,0,0,0,0,3.0,3.0602114999783225,8,001,2019_Nov_18_1351,001,3.0.7,60.01539995011592,
,,,,1,0,1,0,2.0,4.031600599992089,8,001,2019_Nov_18_1351,001,3.0.7,60.01539995011592,
,,,,2,0,2,0,2.0,2.2148544999945443,8,001,2019_Nov_18_1351,001,3.0.7,60.01539995011592,
,,,,3,0,3,0,4.0,2.9980937999789603,8,001,2019_Nov_18_1351,001,3.0.7,60.01539995011592,
,,,,4,0,4,0,3.0,3.514595000015106,8,001,2019_Nov_18_1351,001,3.0.7,60.01539995011592,
,,,,5,0,5,0,2.0,3.3818090000131633,8,001,2019_Nov_18_1351,001,3.0.7,60.01539995011592,
,,,,6,0,6,0,2.0,2.7651454999868292,8,001,2019_Nov_18_1351,001,3.0.7,60.01539995011592,
,,,,7,0,7,0,2.0,2.180772199993953,8,001,2019_Nov_18_1351,001,3.0.7,60.01539995011592,
,,,,8,0,8,0,3.0,3.7810190999880433,8,001,2019_Nov_18_1351,001,3.0.7,60.01539995011592,
,,,,9,0,9,0,3.0,2.981310899980599,8,001,2019_Nov_18_1351,001,3.0.7,60.01539995011592,
,,,,10,0,10,0,3.0,3.215299600007711,8,001,2019_Nov_18_1351,001,3.0.7,60.01539995011592,
,,,,11,0,11,0,2.0,4.148555599997053,8,001,2019_Nov_18_1351,001,3.0.7,60.01539995011592,
,,,,12,0,12,0,4.0,4.781314599997131,8,001,2019_Nov_18_1351,001,3.0.7,60.01539995011592,
,,,,13,0,13,0,4.0,4.565007800003514,8,001,2019_Nov_18_1351,001,3.0.7,60.01539995011592,
,,,,14,0,14,0,3.0,3.048060000000987,8,001,2019_Nov_18_1351,001,3.0.7,60.01539995011592,
,,,,15,0,15,0,3.0,5.098113300016848,8,001,2019_Nov_18_1351,001,3.0.7,60.01539995011592,
,,,,16,0,16,0,2.0,4.531194199982565,8,001,2019_Nov_18_1351,001,3.0.7,60.01539995011592,
,,,,17,0,17,0,3.0,5.231525999988662,8,001,2019_Nov_18_1351,001,3.0.7,60.01539995011592,
,,,,18,0,18,0,4.0,3.614984200015897,8,001,2019_Nov_18_1351,001,3.0.7,60.01539995011592,
,,,,19,0,19,0,2.0,2.314676700014388,8,001,2019_Nov_18_1351,001,3.0.7,60.01539995011592,
,,,,20,0,20,0,3.0,3.0651022999954876,8,001,2019_Nov_18_1351,001,3.0.7,60.01539995011592,
,,,,21,0,21,0,3.0,4.514572499989299,8,001,2019_Nov_18_1351,001,3.0.7,60.01539995011592,
,,,,22,0,22,0,3.0,2.715455199999269,8,001,2019_Nov_18_1351,001,3.0.7,60.01539995011592,
,,,,23,0,23,0,3.0,6.098063799989177,8,001,2019_Nov_18_1351,001,3.0.7,60.01539995011592,
,,,,24,0,24,0,2.0,3.447933599993121,8,001,2019_Nov_18_1351,001,3.0.7,60.01539995011592,
,,,,25,0,25,0,2.0,2.247572599997511,8,001,2019_Nov_18_1351,001,3.0.7,60.01539995011592,
,,,,26,0,26,0,2.0,1.931420100008836,8,001,2019_Nov_18_1351,001,3.0.7,60.01539995011592,
,,,,27,0,27,0,3.0,3.014718799997354,8,001,2019_Nov_18_1351,001,3.0.7,60.01539995011592,
,,,,28,0,28,0,2.0,2.8481008000089787,8,001,2019_Nov_18_1351,001,3.0.7,60.01539995011592,
,,,,29,0,29,0,3.0,4.0153037999989465,8,001,2019_Nov_18_1351,001,3.0.7,60.01539995011592,
,,,,30,0,30,0,3.0,2.4647308999847155,8,001,2019_Nov_18_1351,001,3.0.7,60.01539995011592,
,,,,31,0,31,0,2.0,2.547850599978119,8,001,2019_Nov_18_1351,001,3.0.7,60.01539995011592,
,,,,32,0,32,0,2.0,2.3146049000206403,8,001,2019_Nov_18_1351,001,3.0.7,60.01539995011592,
,,,,33,0,33,0,4.0,3.414376499975333,8,001,2019_Nov_18_1351,001,3.0.7,60.01539995011592,
,,,,34,0,34,0,3.0,2.5980623999785166,8,001,2019_Nov_18_1351,001,3.0.7,60.01539995011592,
,,,,35,0,35,0,2.0,3.147765400004573,8,001,2019_Nov_18_1351,001,3.0.7,60.01539995011592,
,,,,36,0,36,0,2.0,2.21543670000392,8,001,2019_Nov_18_1351,001,3.0.7,60.01539995011592,
,,,,37,0,37,0,2.0,1.9979375999828335,8,001,2019_Nov_18_1351,001,3.0.7,60.01539995011592,
,,,,38,0,38,0,2.0,2.7981595000019297,8,001,2019_Nov_18_1351,001,3.0.7,60.01539995011592,
,,,,39,0,39,0,2.0,1.9809556999825872,8,001,2019_Nov_18_1351,001,3.0.7,60.01539995011592,
,,,,40,0,40,0,3.0,5.699343899992527,8,001,2019_Nov_18_1351,001,3.0.7,60.01539995011592,
,,,,41,0,41,0,2.0,2.464304599998286,8,001,2019_Nov_18_1351,001,3.0.7,60.01539995011592,
,,,,42,0,42,0,3.0,2.864697899989551,8,001,2019_Nov_18_1351,001,3.0.7,60.01539995011592,
,,,,43,0,43,0,2.0,2.3321311000036076,8,001,2019_Nov_18_1351,001,3.0.7,60.01539995011592,
,,,,44,0,44,0,2.0,1.798792500019772,8,001,2019_Nov_18_1351,001,3.0.7,60.01539995011592,
,,,,45,0,45,0,3.0,4.6378535000258125,8,001,2019_Nov_18_1351,001,3.0.7,60.01539995011592,
,,,,46,0,46,0,3.0,6.572505399992224,8,001,2019_Nov_18_1351,001,3.0.7,60.01539995011592,
,,,,47,0,47,0,3.0,3.910125099995639,8,001,2019_Nov_18_1351,001,3.0.7,60.01539995011592,
,,,,48,0,48,0,2.0,3.5704775000049267,8,001,2019_Nov_18_1351,001,3.0.7,60.01539995011592,
,,,,49,0,49,0,3.0,4.508995399984997,8,001,2019_Nov_18_1351,001,3.0.7,60.01539995011592,
,,,,50,0,50,0,3.0,2.8385341999819502,8,001,2019_Nov_18_1351,001,3.0.7,60.01539995011592,
,,,,51,0,51,0,3.0,2.7087440000032075,8,001,2019_Nov_18_1351,001,3.0.7,60.01539995011592,
,,,,52,0,52,0,3.0,6.837879800004885,8,001,2019_Nov_18_1351,001,3.0.7,60.01539995011592,
,,,,53,0,53,0,2.0,2.919520700001158,8,001,2019_Nov_18_1351,001,3.0.7,60.01539995011592,
,,,,54,0,54,0,3.0,2.832400899991626,8,001,2019_Nov_18_1351,001,3.0.7,60.01539995011592,
,,,,55,0,55,0,2.0,2.7643143000022974,8,001,2019_Nov_18_1351,001,3.0.7,60.01539995011592,
,,,,56,0,56,0,3.0,4.5551408999890555,8,001,2019_Nov_18_1351,001,3.0.7,60.01539995011592,
,,,,57,0,57,0,3.0,5.422078200004762,8,001,2019_Nov_18_1351,001,3.0.7,60.01539995011592,
,,,,58,0,58,0,2.0,3.9402051999932155,8,001,2019_Nov_18_1351,001,3.0.7,60.01539995011592,
,,,,59,0,59,0,3.0,4.5755681000009645,8,001,2019_Nov_18_1351,001,3.0.7,60.01539995011592,
