practices.thisRepN,practices.thisTrialN,practices.thisN,practices.thisIndex,trials.thisRepN,trials.thisTrialN,trials.thisN,trials.thisIndex,slider.response,slider.rt,participant,session,date,expName,psychopyVersion,frameRate,
0,0,0,0,,,,,4.0,10.837604300002567,18,001,2019_Nov_20_1047,001,3.0.7,60.00222008507759,
1,0,1,0,,,,,4.0,3.4460103000164963,18,001,2019_Nov_20_1047,001,3.0.7,60.00222008507759,
2,0,2,0,,,,,4.0,2.9816221999935806,18,001,2019_Nov_20_1047,001,3.0.7,60.00222008507759,
3,0,3,0,,,,,4.0,4.948364599957131,18,001,2019_Nov_20_1047,001,3.0.7,60.00222008507759,
4,0,4,0,,,,,3.0,2.4639087000396103,18,001,2019_Nov_20_1047,001,3.0.7,60.00222008507759,
5,0,5,0,,,,,3.0,2.9801124000223354,18,001,2019_Nov_20_1047,001,3.0.7,60.00222008507759,
6,0,6,0,,,,,3.0,4.747312699968461,18,001,2019_Nov_20_1047,001,3.0.7,60.00222008507759,
7,0,7,0,,,,,4.0,2.864305199997034,18,001,2019_Nov_20_1047,001,3.0.7,60.00222008507759,
8,0,8,0,,,,,4.0,3.215055700042285,18,001,2019_Nov_20_1047,001,3.0.7,60.00222008507759,
9,0,9,0,,,,,4.0,2.73025870003039,18,001,2019_Nov_20_1047,001,3.0.7,60.00222008507759,
,,,,0,0,0,0,4.0,4.429734100005589,18,001,2019_Nov_20_1047,001,3.0.7,60.00222008507759,
,,,,1,0,1,0,3.0,2.947822999965865,18,001,2019_Nov_20_1047,001,3.0.7,60.00222008507759,
,,,,2,0,2,0,2.0,5.380605600017589,18,001,2019_Nov_20_1047,001,3.0.7,60.00222008507759,
,,,,3,0,3,0,3.0,5.198409999953583,18,001,2019_Nov_20_1047,001,3.0.7,60.00222008507759,
,,,,4,0,4,0,2.0,3.6643355999840423,18,001,2019_Nov_20_1047,001,3.0.7,60.00222008507759,
,,,,5,0,5,0,3.0,6.615519399987534,18,001,2019_Nov_20_1047,001,3.0.7,60.00222008507759,
,,,,6,0,6,0,4.0,3.4146725999889895,18,001,2019_Nov_20_1047,001,3.0.7,60.00222008507759,
,,,,7,0,7,0,4.0,3.2142025000066496,18,001,2019_Nov_20_1047,001,3.0.7,60.00222008507759,
,,,,8,0,8,0,3.0,2.980762900027912,18,001,2019_Nov_20_1047,001,3.0.7,60.00222008507759,
,,,,9,0,9,0,2.0,5.964406199986115,18,001,2019_Nov_20_1047,001,3.0.7,60.00222008507759,
,,,,10,0,10,0,3.0,3.4817560000228696,18,001,2019_Nov_20_1047,001,3.0.7,60.00222008507759,
,,,,11,0,11,0,4.0,3.581386499979999,18,001,2019_Nov_20_1047,001,3.0.7,60.00222008507759,
,,,,12,0,12,0,4.0,2.748006500012707,18,001,2019_Nov_20_1047,001,3.0.7,60.00222008507759,
,,,,13,0,13,0,3.0,2.8638993999920785,18,001,2019_Nov_20_1047,001,3.0.7,60.00222008507759,
,,,,14,0,14,0,4.0,3.0651965999859385,18,001,2019_Nov_20_1047,001,3.0.7,60.00222008507759,
,,,,15,0,15,0,3.0,5.1153954999754205,18,001,2019_Nov_20_1047,001,3.0.7,60.00222008507759,
,,,,16,0,16,0,3.0,2.7978832999942824,18,001,2019_Nov_20_1047,001,3.0.7,60.00222008507759,
,,,,17,0,17,0,4.0,5.298067800002173,18,001,2019_Nov_20_1047,001,3.0.7,60.00222008507759,
,,,,18,0,18,0,3.0,4.214299900049809,18,001,2019_Nov_20_1047,001,3.0.7,60.00222008507759,
,,,,19,0,19,0,4.0,2.5649167000083253,18,001,2019_Nov_20_1047,001,3.0.7,60.00222008507759,
,,,,20,0,20,0,2.0,5.3482593999942765,18,001,2019_Nov_20_1047,001,3.0.7,60.00222008507759,
,,,,21,0,21,0,4.0,3.597916200000327,18,001,2019_Nov_20_1047,001,3.0.7,60.00222008507759,
,,,,22,0,22,0,2.0,4.014748400019016,18,001,2019_Nov_20_1047,001,3.0.7,60.00222008507759,
,,,,23,0,23,0,4.0,4.231424500001594,18,001,2019_Nov_20_1047,001,3.0.7,60.00222008507759,
,,,,24,0,24,0,4.0,2.1981526000308804,18,001,2019_Nov_20_1047,001,3.0.7,60.00222008507759,
,,,,25,0,25,0,4.0,2.38116849999642,18,001,2019_Nov_20_1047,001,3.0.7,60.00222008507759,
,,,,26,0,26,0,4.0,4.765475300024264,18,001,2019_Nov_20_1047,001,3.0.7,60.00222008507759,
,,,,27,0,27,0,3.0,3.6478399999905378,18,001,2019_Nov_20_1047,001,3.0.7,60.00222008507759,
,,,,28,0,28,0,3.0,2.997979399980977,18,001,2019_Nov_20_1047,001,3.0.7,60.00222008507759,
,,,,29,0,29,0,4.0,2.5982851999578997,18,001,2019_Nov_20_1047,001,3.0.7,60.00222008507759,
,,,,30,0,30,0,2.0,5.997983500012197,18,001,2019_Nov_20_1047,001,3.0.7,60.00222008507759,
,,,,31,0,31,0,3.0,4.965285399986897,18,001,2019_Nov_20_1047,001,3.0.7,60.00222008507759,
,,,,32,0,32,0,3.0,3.9476076999562792,18,001,2019_Nov_20_1047,001,3.0.7,60.00222008507759,
,,,,33,0,33,0,4.0,3.2147438999963924,18,001,2019_Nov_20_1047,001,3.0.7,60.00222008507759,
,,,,34,0,34,0,4.0,4.148554399958812,18,001,2019_Nov_20_1047,001,3.0.7,60.00222008507759,
,,,,35,0,35,0,3.0,3.981305999972392,18,001,2019_Nov_20_1047,001,3.0.7,60.00222008507759,
,,,,36,0,36,0,2.0,3.8489203000208363,18,001,2019_Nov_20_1047,001,3.0.7,60.00222008507759,
,,,,37,0,37,0,3.0,2.9649031000444666,18,001,2019_Nov_20_1047,001,3.0.7,60.00222008507759,
,,,,38,0,38,0,4.0,3.314896600029897,18,001,2019_Nov_20_1047,001,3.0.7,60.00222008507759,
,,,,39,0,39,0,3.0,2.598086300014984,18,001,2019_Nov_20_1047,001,3.0.7,60.00222008507759,
,,,,40,0,40,0,2.0,3.497894299973268,18,001,2019_Nov_20_1047,001,3.0.7,60.00222008507759,
,,,,41,0,41,0,3.0,3.0982366999960504,18,001,2019_Nov_20_1047,001,3.0.7,60.00222008507759,
,,,,42,0,42,0,3.0,3.6819386000279337,18,001,2019_Nov_20_1047,001,3.0.7,60.00222008507759,
,,,,43,0,43,0,4.0,4.864682199957315,18,001,2019_Nov_20_1047,001,3.0.7,60.00222008507759,
,,,,44,0,44,0,4.0,3.197678700031247,18,001,2019_Nov_20_1047,001,3.0.7,60.00222008507759,
,,,,45,0,45,0,3.0,2.8151200000429526,18,001,2019_Nov_20_1047,001,3.0.7,60.00222008507759,
,,,,46,0,46,0,4.0,2.9363469000090845,18,001,2019_Nov_20_1047,001,3.0.7,60.00222008507759,
,,,,47,0,47,0,4.0,2.2959721999941394,18,001,2019_Nov_20_1047,001,3.0.7,60.00222008507759,
,,,,48,0,48,0,4.0,2.535938000015449,18,001,2019_Nov_20_1047,001,3.0.7,60.00222008507759,
,,,,49,0,49,0,4.0,2.360369800007902,18,001,2019_Nov_20_1047,001,3.0.7,60.00222008507759,
,,,,50,0,50,0,4.0,5.379624299996067,18,001,2019_Nov_20_1047,001,3.0.7,60.00222008507759,
,,,,51,0,51,0,3.0,3.9915190000319853,18,001,2019_Nov_20_1047,001,3.0.7,60.00222008507759,
,,,,52,0,52,0,4.0,2.7878327000071295,18,001,2019_Nov_20_1047,001,3.0.7,60.00222008507759,
,,,,53,0,53,0,3.0,3.1633059000014327,18,001,2019_Nov_20_1047,001,3.0.7,60.00222008507759,
,,,,54,0,54,0,3.0,4.80761410004925,18,001,2019_Nov_20_1047,001,3.0.7,60.00222008507759,
,,,,55,0,55,0,3.0,5.2208001999533735,18,001,2019_Nov_20_1047,001,3.0.7,60.00222008507759,
,,,,56,0,56,0,4.0,3.134908599953633,18,001,2019_Nov_20_1047,001,3.0.7,60.00222008507759,
,,,,57,0,57,0,3.0,3.277732599992305,18,001,2019_Nov_20_1047,001,3.0.7,60.00222008507759,
,,,,58,0,58,0,4.0,2.871252999990247,18,001,2019_Nov_20_1047,001,3.0.7,60.00222008507759,
,,,,59,0,59,0,3.0,2.5636801999644376,18,001,2019_Nov_20_1047,001,3.0.7,60.00222008507759,
