practices.thisRepN,practices.thisTrialN,practices.thisN,practices.thisIndex,trials.thisRepN,trials.thisTrialN,trials.thisN,trials.thisIndex,slider.response,slider.rt,participant,session,date,expName,psychopyVersion,frameRate,
0,0,0,0,,,,,3.0,4.302368099975865,19,001,2019_Nov_20_1515,001,3.0.7,60.06781656382109,
1,0,1,0,,,,,4.0,4.795989100006409,19,001,2019_Nov_20_1515,001,3.0.7,60.06781656382109,
2,0,2,0,,,,,4.0,2.997993499971926,19,001,2019_Nov_20_1515,001,3.0.7,60.06781656382109,
3,0,3,0,,,,,4.0,3.4640192999504507,19,001,2019_Nov_20_1515,001,3.0.7,60.06781656382109,
4,0,4,0,,,,,2.0,2.9147227000212297,19,001,2019_Nov_20_1515,001,3.0.7,60.06781656382109,
5,0,5,0,,,,,2.0,2.6639201999641955,19,001,2019_Nov_20_1515,001,3.0.7,60.06781656382109,
6,0,6,0,,,,,2.0,3.2483152000349946,19,001,2019_Nov_20_1515,001,3.0.7,60.06781656382109,
7,0,7,0,,,,,3.0,2.9806536000105552,19,001,2019_Nov_20_1515,001,3.0.7,60.06781656382109,
8,0,8,0,,,,,1.0,2.5475295999785885,19,001,2019_Nov_20_1515,001,3.0.7,60.06781656382109,
9,0,9,0,,,,,1.0,2.113845699990634,19,001,2019_Nov_20_1515,001,3.0.7,60.06781656382109,
,,,,0,0,0,0,1.0,2.414540800033137,19,001,2019_Nov_20_1515,001,3.0.7,60.06781656382109,
,,,,1,0,1,0,2.0,3.647994800005108,19,001,2019_Nov_20_1515,001,3.0.7,60.06781656382109,
,,,,2,0,2,0,1.0,2.3314423999981955,19,001,2019_Nov_20_1515,001,3.0.7,60.06781656382109,
,,,,3,0,3,0,1.0,2.264962100016419,19,001,2019_Nov_20_1515,001,3.0.7,60.06781656382109,
,,,,4,0,4,0,1.0,1.8981025000102818,19,001,2019_Nov_20_1515,001,3.0.7,60.06781656382109,
,,,,5,0,5,0,4.0,4.131594500038773,19,001,2019_Nov_20_1515,001,3.0.7,60.06781656382109,
,,,,6,0,6,0,3.0,4.881440800032578,19,001,2019_Nov_20_1515,001,3.0.7,60.06781656382109,
,,,,7,0,7,0,1.0,3.1146504000062123,19,001,2019_Nov_20_1515,001,3.0.7,60.06781656382109,
,,,,8,0,8,0,2.0,2.414151499979198,19,001,2019_Nov_20_1515,001,3.0.7,60.06781656382109,
,,,,9,0,9,0,2.0,2.831347100029234,19,001,2019_Nov_20_1515,001,3.0.7,60.06781656382109,
,,,,10,0,10,0,1.0,2.2648699000128545,19,001,2019_Nov_20_1515,001,3.0.7,60.06781656382109,
,,,,11,0,11,0,1.0,1.8817729000002146,19,001,2019_Nov_20_1515,001,3.0.7,60.06781656382109,
,,,,12,0,12,0,1.0,2.4649202000000514,19,001,2019_Nov_20_1515,001,3.0.7,60.06781656382109,
,,,,13,0,13,0,2.0,3.6315162000246346,19,001,2019_Nov_20_1515,001,3.0.7,60.06781656382109,
,,,,14,0,14,0,1.0,2.3310800999752246,19,001,2019_Nov_20_1515,001,3.0.7,60.06781656382109,
,,,,15,0,15,0,2.0,2.6480287999729626,19,001,2019_Nov_20_1515,001,3.0.7,60.06781656382109,
,,,,16,0,16,0,1.0,2.4980703000328504,19,001,2019_Nov_20_1515,001,3.0.7,60.06781656382109,
,,,,17,0,17,0,1.0,1.7647449999931268,19,001,2019_Nov_20_1515,001,3.0.7,60.06781656382109,
,,,,18,0,18,0,1.0,2.1980358999571763,19,001,2019_Nov_20_1515,001,3.0.7,60.06781656382109,
,,,,19,0,19,0,3.0,2.898074699973222,19,001,2019_Nov_20_1515,001,3.0.7,60.06781656382109,
,,,,20,0,20,0,2.0,2.6820996000315063,19,001,2019_Nov_20_1515,001,3.0.7,60.06781656382109,
,,,,21,0,21,0,2.0,3.1483211999875493,19,001,2019_Nov_20_1515,001,3.0.7,60.06781656382109,
,,,,22,0,22,0,2.0,4.164814800024033,19,001,2019_Nov_20_1515,001,3.0.7,60.06781656382109,
,,,,23,0,23,0,3.0,3.048138099955395,19,001,2019_Nov_20_1515,001,3.0.7,60.06781656382109,
,,,,24,0,24,0,4.0,3.6813358000363223,19,001,2019_Nov_20_1515,001,3.0.7,60.06781656382109,
,,,,25,0,25,0,1.0,2.681604099983815,19,001,2019_Nov_20_1515,001,3.0.7,60.06781656382109,
,,,,26,0,26,0,2.0,2.548031300015282,19,001,2019_Nov_20_1515,001,3.0.7,60.06781656382109,
,,,,27,0,27,0,1.0,3.9981072999653406,19,001,2019_Nov_20_1515,001,3.0.7,60.06781656382109,
,,,,28,0,28,0,1.0,2.5311718999873847,19,001,2019_Nov_20_1515,001,3.0.7,60.06781656382109,
,,,,29,0,29,0,4.0,4.648508400015999,19,001,2019_Nov_20_1515,001,3.0.7,60.06781656382109,
,,,,30,0,30,0,1.0,2.481209099991247,19,001,2019_Nov_20_1515,001,3.0.7,60.06781656382109,
,,,,31,0,31,0,3.0,2.76485059998231,19,001,2019_Nov_20_1515,001,3.0.7,60.06781656382109,
,,,,32,0,32,0,1.0,2.631968300032895,19,001,2019_Nov_20_1515,001,3.0.7,60.06781656382109,
,,,,33,0,33,0,4.0,2.5813726999913342,19,001,2019_Nov_20_1515,001,3.0.7,60.06781656382109,
,,,,34,0,34,0,2.0,2.281322300026659,19,001,2019_Nov_20_1515,001,3.0.7,60.06781656382109,
,,,,35,0,35,0,2.0,2.1652888000244275,19,001,2019_Nov_20_1515,001,3.0.7,60.06781656382109,
,,,,36,0,36,0,3.0,2.9147449000156485,19,001,2019_Nov_20_1515,001,3.0.7,60.06781656382109,
,,,,37,0,37,0,1.0,2.2648556999629363,19,001,2019_Nov_20_1515,001,3.0.7,60.06781656382109,
,,,,38,0,38,0,1.0,1.8309414999675937,19,001,2019_Nov_20_1515,001,3.0.7,60.06781656382109,
,,,,39,0,39,0,1.0,2.0821340000256896,19,001,2019_Nov_20_1515,001,3.0.7,60.06781656382109,
,,,,40,0,40,0,3.0,4.065350299992133,19,001,2019_Nov_20_1515,001,3.0.7,60.06781656382109,
,,,,41,0,41,0,1.0,3.014687600021716,19,001,2019_Nov_20_1515,001,3.0.7,60.06781656382109,
,,,,42,0,42,0,1.0,3.447963099984918,19,001,2019_Nov_20_1515,001,3.0.7,60.06781656382109,
,,,,43,0,43,0,2.0,3.7648581999819726,19,001,2019_Nov_20_1515,001,3.0.7,60.06781656382109,
,,,,44,0,44,0,1.0,2.314704400021583,19,001,2019_Nov_20_1515,001,3.0.7,60.06781656382109,
,,,,45,0,45,0,4.0,6.077912600012496,19,001,2019_Nov_20_1515,001,3.0.7,60.06781656382109,
,,,,46,0,46,0,4.0,3.612620300031267,19,001,2019_Nov_20_1515,001,3.0.7,60.06781656382109,
,,,,47,0,47,0,4.0,2.899674399988726,19,001,2019_Nov_20_1515,001,3.0.7,60.06781656382109,
,,,,48,0,48,0,3.0,3.150571299949661,19,001,2019_Nov_20_1515,001,3.0.7,60.06781656382109,
,,,,49,0,49,0,2.0,2.9986953999614343,19,001,2019_Nov_20_1515,001,3.0.7,60.06781656382109,
,,,,50,0,50,0,2.0,2.5329515999765135,19,001,2019_Nov_20_1515,001,3.0.7,60.06781656382109,
,,,,51,0,51,0,3.0,3.059632899996359,19,001,2019_Nov_20_1515,001,3.0.7,60.06781656382109,
,,,,52,0,52,0,4.0,5.165034100005869,19,001,2019_Nov_20_1515,001,3.0.7,60.06781656382109,
,,,,53,0,53,0,3.0,2.699340699997265,19,001,2019_Nov_20_1515,001,3.0.7,60.06781656382109,
,,,,54,0,54,0,3.0,2.58388529997319,19,001,2019_Nov_20_1515,001,3.0.7,60.06781656382109,
,,,,55,0,55,0,2.0,3.6892841999651864,19,001,2019_Nov_20_1515,001,3.0.7,60.06781656382109,
,,,,56,0,56,0,4.0,4.017138399998657,19,001,2019_Nov_20_1515,001,3.0.7,60.06781656382109,
,,,,57,0,57,0,2.0,3.4379947999841534,19,001,2019_Nov_20_1515,001,3.0.7,60.06781656382109,
,,,,58,0,58,0,5.0,2.968166599981487,19,001,2019_Nov_20_1515,001,3.0.7,60.06781656382109,
,,,,59,0,59,0,3.0,2.569823500001803,19,001,2019_Nov_20_1515,001,3.0.7,60.06781656382109,
