practices.thisRepN,practices.thisTrialN,practices.thisN,practices.thisIndex,trials.thisRepN,trials.thisTrialN,trials.thisN,trials.thisIndex,slider.response,slider.rt,participant,session,date,expName,psychopyVersion,frameRate,
0,0,0,0,,,,,3.0,8.025638699997216,28,001,2019_Nov_22_1146,001,3.0.7,60.01759715373957,
1,0,1,0,,,,,4.0,5.744776299921796,28,001,2019_Nov_22_1146,001,3.0.7,60.01759715373957,
2,0,2,0,,,,,3.0,7.48175929998979,28,001,2019_Nov_22_1146,001,3.0.7,60.01759715373957,
3,0,3,0,,,,,4.0,4.580562699935399,28,001,2019_Nov_22_1146,001,3.0.7,60.01759715373957,
4,0,4,0,,,,,3.0,5.796899700071663,28,001,2019_Nov_22_1146,001,3.0.7,60.01759715373957,
5,0,5,0,,,,,3.0,3.8315287000732496,28,001,2019_Nov_22_1146,001,3.0.7,60.01759715373957,
6,0,6,0,,,,,3.0,4.114418599987403,28,001,2019_Nov_22_1146,001,3.0.7,60.01759715373957,
7,0,7,0,,,,,4.0,6.53074870002456,28,001,2019_Nov_22_1146,001,3.0.7,60.01759715373957,
8,0,8,0,,,,,3.0,4.263721899944358,28,001,2019_Nov_22_1146,001,3.0.7,60.01759715373957,
9,0,9,0,,,,,4.0,4.096369000035338,28,001,2019_Nov_22_1146,001,3.0.7,60.01759715373957,
,,,,0,0,0,0,3.0,5.196817000047304,28,001,2019_Nov_22_1146,001,3.0.7,60.01759715373957,
,,,,1,0,1,0,4.0,5.531004099990241,28,001,2019_Nov_22_1146,001,3.0.7,60.01759715373957,
,,,,2,0,2,0,4.0,5.2480816000606865,28,001,2019_Nov_22_1146,001,3.0.7,60.01759715373957,
,,,,3,0,3,0,3.0,5.014378400053829,28,001,2019_Nov_22_1146,001,3.0.7,60.01759715373957,
,,,,4,0,4,0,3.0,2.6309529999271035,28,001,2019_Nov_22_1146,001,3.0.7,60.01759715373957,
,,,,5,0,5,0,3.0,2.6314441000577062,28,001,2019_Nov_22_1146,001,3.0.7,60.01759715373957,
,,,,6,0,6,0,4.0,5.314579199999571,28,001,2019_Nov_22_1146,001,3.0.7,60.01759715373957,
,,,,7,0,7,0,2.0,6.014592299936339,28,001,2019_Nov_22_1146,001,3.0.7,60.01759715373957,
,,,,8,0,8,0,3.0,5.6970457000425085,28,001,2019_Nov_22_1146,001,3.0.7,60.01759715373957,
,,,,9,0,9,0,3.0,2.3321802000282332,28,001,2019_Nov_22_1146,001,3.0.7,60.01759715373957,
,,,,10,0,10,0,3.0,2.247919899993576,28,001,2019_Nov_22_1146,001,3.0.7,60.01759715373957,
,,,,11,0,11,0,3.0,1.9976190000306815,28,001,2019_Nov_22_1146,001,3.0.7,60.01759715373957,
,,,,12,0,12,0,3.0,3.1811106998939067,28,001,2019_Nov_22_1146,001,3.0.7,60.01759715373957,
,,,,13,0,13,0,3.0,9.547678499948233,28,001,2019_Nov_22_1146,001,3.0.7,60.01759715373957,
,,,,14,0,14,0,3.0,1.9478457999648526,28,001,2019_Nov_22_1146,001,3.0.7,60.01759715373957,
,,,,15,0,15,0,3.0,9.614852600032464,28,001,2019_Nov_22_1146,001,3.0.7,60.01759715373957,
,,,,16,0,16,0,3.0,8.91428329993505,28,001,2019_Nov_22_1146,001,3.0.7,60.01759715373957,
,,,,17,0,17,0,3.0,2.6310596000403166,28,001,2019_Nov_22_1146,001,3.0.7,60.01759715373957,
,,,,18,0,18,0,4.0,8.29817159997765,28,001,2019_Nov_22_1146,001,3.0.7,60.01759715373957,
,,,,19,0,19,0,3.0,3.4809878999367356,28,001,2019_Nov_22_1146,001,3.0.7,60.01759715373957,
,,,,20,0,20,0,3.0,2.3647761000320315,28,001,2019_Nov_22_1146,001,3.0.7,60.01759715373957,
,,,,21,0,21,0,3.0,3.5648546000011265,28,001,2019_Nov_22_1146,001,3.0.7,60.01759715373957,
,,,,22,0,22,0,3.0,2.498016000026837,28,001,2019_Nov_22_1146,001,3.0.7,60.01759715373957,
,,,,23,0,23,0,2.0,4.731141799944453,28,001,2019_Nov_22_1146,001,3.0.7,60.01759715373957,
,,,,24,0,24,0,3.0,3.014469899935648,28,001,2019_Nov_22_1146,001,3.0.7,60.01759715373957,
,,,,25,0,25,0,3.0,5.898071000003256,28,001,2019_Nov_22_1146,001,3.0.7,60.01759715373957,
,,,,26,0,26,0,4.0,4.764717599959113,28,001,2019_Nov_22_1146,001,3.0.7,60.01759715373957,
,,,,27,0,27,0,3.0,2.8805913999676704,28,001,2019_Nov_22_1146,001,3.0.7,60.01759715373957,
,,,,28,0,28,0,3.0,2.481428899918683,28,001,2019_Nov_22_1146,001,3.0.7,60.01759715373957,
,,,,29,0,29,0,3.0,6.964703600038774,28,001,2019_Nov_22_1146,001,3.0.7,60.01759715373957,
,,,,30,0,30,0,3.0,2.182125199935399,28,001,2019_Nov_22_1146,001,3.0.7,60.01759715373957,
,,,,31,0,31,0,3.0,7.048001800081693,28,001,2019_Nov_22_1146,001,3.0.7,60.01759715373957,
,,,,32,0,32,0,3.0,4.547517900005914,28,001,2019_Nov_22_1146,001,3.0.7,60.01759715373957,
,,,,33,0,33,0,3.0,3.5316334000090137,28,001,2019_Nov_22_1146,001,3.0.7,60.01759715373957,
,,,,34,0,34,0,3.0,3.815424000029452,28,001,2019_Nov_22_1146,001,3.0.7,60.01759715373957,
,,,,35,0,35,0,3.0,3.2649010999593884,28,001,2019_Nov_22_1146,001,3.0.7,60.01759715373957,
,,,,36,0,36,0,3.0,5.8479743000352755,28,001,2019_Nov_22_1146,001,3.0.7,60.01759715373957,
,,,,37,0,37,0,3.0,3.9810603000223637,28,001,2019_Nov_22_1146,001,3.0.7,60.01759715373957,
,,,,38,0,38,0,3.0,3.531988100032322,28,001,2019_Nov_22_1146,001,3.0.7,60.01759715373957,
,,,,39,0,39,0,3.0,5.547739199944772,28,001,2019_Nov_22_1146,001,3.0.7,60.01759715373957,
,,,,40,0,40,0,3.0,2.9149729000637308,28,001,2019_Nov_22_1146,001,3.0.7,60.01759715373957,
,,,,41,0,41,0,3.0,3.4313665999798104,28,001,2019_Nov_22_1146,001,3.0.7,60.01759715373957,
,,,,42,0,42,0,2.0,8.981191100087017,28,001,2019_Nov_22_1146,001,3.0.7,60.01759715373957,
,,,,43,0,43,0,3.0,2.4312760999891907,28,001,2019_Nov_22_1146,001,3.0.7,60.01759715373957,
,,,,44,0,44,0,4.0,5.31463509995956,28,001,2019_Nov_22_1146,001,3.0.7,60.01759715373957,
,,,,45,0,45,0,3.0,3.436114300042391,28,001,2019_Nov_22_1146,001,3.0.7,60.01759715373957,
,,,,46,0,46,0,3.0,4.677323900046758,28,001,2019_Nov_22_1146,001,3.0.7,60.01759715373957,
,,,,47,0,47,0,3.0,3.498853199998848,28,001,2019_Nov_22_1146,001,3.0.7,60.01759715373957,
,,,,48,0,48,0,4.0,5.288292499957606,28,001,2019_Nov_22_1146,001,3.0.7,60.01759715373957,
,,,,49,0,49,0,3.0,2.9770176999736577,28,001,2019_Nov_22_1146,001,3.0.7,60.01759715373957,
,,,,50,0,50,0,3.0,3.7334840000839904,28,001,2019_Nov_22_1146,001,3.0.7,60.01759715373957,
,,,,51,0,51,0,3.0,2.8635812000138685,28,001,2019_Nov_22_1146,001,3.0.7,60.01759715373957,
,,,,52,0,52,0,3.0,2.1714776000007987,28,001,2019_Nov_22_1146,001,3.0.7,60.01759715373957,
,,,,53,0,53,0,3.0,3.3110822000307962,28,001,2019_Nov_22_1146,001,3.0.7,60.01759715373957,
,,,,54,0,54,0,3.0,4.090714100049809,28,001,2019_Nov_22_1146,001,3.0.7,60.01759715373957,
,,,,55,0,55,0,3.0,2.71209489996545,28,001,2019_Nov_22_1146,001,3.0.7,60.01759715373957,
,,,,56,0,56,0,3.0,2.4887117000762373,28,001,2019_Nov_22_1146,001,3.0.7,60.01759715373957,
,,,,57,0,57,0,3.0,3.6980069000273943,28,001,2019_Nov_22_1146,001,3.0.7,60.01759715373957,
,,,,58,0,58,0,3.0,3.478831399930641,28,001,2019_Nov_22_1146,001,3.0.7,60.01759715373957,
,,,,59,0,59,0,3.0,2.431054300046526,28,001,2019_Nov_22_1146,001,3.0.7,60.01759715373957,
