practices.thisRepN,practices.thisTrialN,practices.thisN,practices.thisIndex,trials.thisRepN,trials.thisTrialN,trials.thisN,trials.thisIndex,slider.response,slider.rt,participant,session,date,expName,psychopyVersion,frameRate,
0,0,0,0,,,,,3.0,13.770585100050084,38,001,2019_Nov_27_1357,001,3.0.7,60.0117622971662,
1,0,1,0,,,,,3.0,6.713383299997076,38,001,2019_Nov_27_1357,001,3.0.7,60.0117622971662,
2,0,2,0,,,,,2.0,6.029470300069079,38,001,2019_Nov_27_1357,001,3.0.7,60.0117622971662,
3,0,3,0,,,,,4.0,5.047736700042151,38,001,2019_Nov_27_1357,001,3.0.7,60.0117622971662,
4,0,4,0,,,,,1.0,3.663871700060554,38,001,2019_Nov_27_1357,001,3.0.7,60.0117622971662,
5,0,5,0,,,,,1.0,2.3810292000416666,38,001,2019_Nov_27_1357,001,3.0.7,60.0117622971662,
6,0,6,0,,,,,3.0,4.897464099922217,38,001,2019_Nov_27_1357,001,3.0.7,60.0117622971662,
7,0,7,0,,,,,5.0,6.197023099986836,38,001,2019_Nov_27_1357,001,3.0.7,60.0117622971662,
8,0,8,0,,,,,1.0,3.1646305999020115,38,001,2019_Nov_27_1357,001,3.0.7,60.0117622971662,
9,0,9,0,,,,,1.0,2.3141964999958873,38,001,2019_Nov_27_1357,001,3.0.7,60.0117622971662,
,,,,0,0,0,0,1.0,3.910176399978809,38,001,2019_Nov_27_1357,001,3.0.7,60.0117622971662,
,,,,1,0,1,0,2.0,4.448528000037186,38,001,2019_Nov_27_1357,001,3.0.7,60.0117622971662,
,,,,2,0,2,0,4.0,3.3473791000433266,38,001,2019_Nov_27_1357,001,3.0.7,60.0117622971662,
,,,,3,0,3,0,1.0,3.2816175000043586,38,001,2019_Nov_27_1357,001,3.0.7,60.0117622971662,
,,,,4,0,4,0,1.0,2.216228000004776,38,001,2019_Nov_27_1357,001,3.0.7,60.0117622971662,
,,,,5,0,5,0,1.0,0.34815930004697293,38,001,2019_Nov_27_1357,001,3.0.7,60.0117622971662,
,,,,6,0,6,0,1.0,2.047826200025156,38,001,2019_Nov_27_1357,001,3.0.7,60.0117622971662,
,,,,7,0,7,0,2.0,3.3989279000088573,38,001,2019_Nov_27_1357,001,3.0.7,60.0117622971662,
,,,,8,0,8,0,1.0,2.3141026999801397,38,001,2019_Nov_27_1357,001,3.0.7,60.0117622971662,
,,,,9,0,9,0,2.0,4.182144099962898,38,001,2019_Nov_27_1357,001,3.0.7,60.0117622971662,
,,,,10,0,10,0,3.0,4.998101499979384,38,001,2019_Nov_27_1357,001,3.0.7,60.0117622971662,
,,,,11,0,11,0,2.0,3.0475649000145495,38,001,2019_Nov_27_1357,001,3.0.7,60.0117622971662,
,,,,12,0,12,0,1.0,2.6988021000288427,38,001,2019_Nov_27_1357,001,3.0.7,60.0117622971662,
,,,,13,0,13,0,3.0,3.198503200081177,38,001,2019_Nov_27_1357,001,3.0.7,60.0117622971662,
,,,,14,0,14,0,1.0,3.5982458000071347,38,001,2019_Nov_27_1357,001,3.0.7,60.0117622971662,
,,,,15,0,15,0,2.0,4.931454700068571,38,001,2019_Nov_27_1357,001,3.0.7,60.0117622971662,
,,,,16,0,16,0,2.0,3.3144469999242574,38,001,2019_Nov_27_1357,001,3.0.7,60.0117622971662,
,,,,17,0,17,0,3.0,2.7648111999733374,38,001,2019_Nov_27_1357,001,3.0.7,60.0117622971662,
,,,,18,0,18,0,1.0,2.54792320006527,38,001,2019_Nov_27_1357,001,3.0.7,60.0117622971662,
,,,,19,0,19,0,1.0,1.764143000007607,38,001,2019_Nov_27_1357,001,3.0.7,60.0117622971662,
,,,,20,0,20,0,2.0,2.3154248000355437,38,001,2019_Nov_27_1357,001,3.0.7,60.0117622971662,
,,,,21,0,21,0,3.0,2.4647685000672936,38,001,2019_Nov_27_1357,001,3.0.7,60.0117622971662,
,,,,22,0,22,0,1.0,2.648655299912207,38,001,2019_Nov_27_1357,001,3.0.7,60.0117622971662,
,,,,23,0,23,0,2.0,3.014641599962488,38,001,2019_Nov_27_1357,001,3.0.7,60.0117622971662,
,,,,24,0,24,0,2.0,2.2639128000009805,38,001,2019_Nov_27_1357,001,3.0.7,60.0117622971662,
,,,,25,0,25,0,2.0,2.8315694000339136,38,001,2019_Nov_27_1357,001,3.0.7,60.0117622971662,
,,,,26,0,26,0,2.0,3.6312288000481203,38,001,2019_Nov_27_1357,001,3.0.7,60.0117622971662,
,,,,27,0,27,0,1.0,2.264507699990645,38,001,2019_Nov_27_1357,001,3.0.7,60.0117622971662,
,,,,28,0,28,0,1.0,1.9979105999227613,38,001,2019_Nov_27_1357,001,3.0.7,60.0117622971662,
,,,,29,0,29,0,3.0,5.314714699983597,38,001,2019_Nov_27_1357,001,3.0.7,60.0117622971662,
,,,,30,0,30,0,2.0,3.8812069999985397,38,001,2019_Nov_27_1357,001,3.0.7,60.0117622971662,
,,,,31,0,31,0,4.0,2.4646880000364035,38,001,2019_Nov_27_1357,001,3.0.7,60.0117622971662,
,,,,32,0,32,0,1.0,2.9313312999438494,38,001,2019_Nov_27_1357,001,3.0.7,60.0117622971662,
,,,,33,0,33,0,3.0,3.114451300003566,38,001,2019_Nov_27_1357,001,3.0.7,60.0117622971662,
,,,,34,0,34,0,1.0,3.3650678999256343,38,001,2019_Nov_27_1357,001,3.0.7,60.0117622971662,
,,,,35,0,35,0,1.0,2.430966299958527,38,001,2019_Nov_27_1357,001,3.0.7,60.0117622971662,
,,,,36,0,36,0,2.0,2.414982400019653,38,001,2019_Nov_27_1357,001,3.0.7,60.0117622971662,
,,,,37,0,37,0,2.0,2.864761699922383,38,001,2019_Nov_27_1357,001,3.0.7,60.0117622971662,
,,,,38,0,38,0,2.0,4.264378099935129,38,001,2019_Nov_27_1357,001,3.0.7,60.0117622971662,
,,,,39,0,39,0,2.0,3.597892599995248,38,001,2019_Nov_27_1357,001,3.0.7,60.0117622971662,
,,,,40,0,40,0,3.0,2.515335000003688,38,001,2019_Nov_27_1357,001,3.0.7,60.0117622971662,
,,,,41,0,41,0,2.0,4.0813818000024185,38,001,2019_Nov_27_1357,001,3.0.7,60.0117622971662,
,,,,42,0,42,0,2.0,4.714736300054938,38,001,2019_Nov_27_1357,001,3.0.7,60.0117622971662,
,,,,43,0,43,0,1.0,4.347779999952763,38,001,2019_Nov_27_1357,001,3.0.7,60.0117622971662,
,,,,44,0,44,0,1.0,3.564794600009918,38,001,2019_Nov_27_1357,001,3.0.7,60.0117622971662,
,,,,45,0,45,0,3.0,4.5795393999433145,38,001,2019_Nov_27_1357,001,3.0.7,60.0117622971662,
,,,,46,0,46,0,4.0,2.510912499972619,38,001,2019_Nov_27_1357,001,3.0.7,60.0117622971662,
,,,,47,0,47,0,2.0,2.8596293000737205,38,001,2019_Nov_27_1357,001,3.0.7,60.0117622971662,
,,,,48,0,48,0,2.0,2.5550326999509707,38,001,2019_Nov_27_1357,001,3.0.7,60.0117622971662,
,,,,49,0,49,0,4.0,3.364866300020367,38,001,2019_Nov_27_1357,001,3.0.7,60.0117622971662,
,,,,50,0,50,0,2.0,4.731776100001298,38,001,2019_Nov_27_1357,001,3.0.7,60.0117622971662,
,,,,51,0,51,0,4.0,4.085950700100511,38,001,2019_Nov_27_1357,001,3.0.7,60.0117622971662,
,,,,52,0,52,0,2.0,2.9025321999797598,38,001,2019_Nov_27_1357,001,3.0.7,60.0117622971662,
,,,,53,0,53,0,3.0,2.9318730999948457,38,001,2019_Nov_27_1357,001,3.0.7,60.0117622971662,
,,,,54,0,54,0,2.0,3.9432130999630317,38,001,2019_Nov_27_1357,001,3.0.7,60.0117622971662,
,,,,55,0,55,0,2.0,3.2313236999325454,38,001,2019_Nov_27_1357,001,3.0.7,60.0117622971662,
,,,,56,0,56,0,2.0,1.988500399980694,38,001,2019_Nov_27_1357,001,3.0.7,60.0117622971662,
,,,,57,0,57,0,1.0,3.6857777999248356,38,001,2019_Nov_27_1357,001,3.0.7,60.0117622971662,
,,,,58,0,58,0,3.0,3.023409300018102,38,001,2019_Nov_27_1357,001,3.0.7,60.0117622971662,
,,,,59,0,59,0,4.0,2.5565920000663027,38,001,2019_Nov_27_1357,001,3.0.7,60.0117622971662,
